##TITLE=No Description
##DATA TYPE=INFRARED SPECTRUM
##XUNITS=1/CM
##YUNITS=%T
400.628357  	307.360114 
402.059173  	384.207477 
403.489988  	75.805599 
404.920804  	117.084244 
406.351619  	32.249774 
407.782435  	45.188667 
409.213250  	73.471734 
410.644066  	53.337372 
412.074881  	83.029458 
413.505697  	88.564336 
414.936513  	57.125241 
416.367328  	486.526282 
417.798144  	356.773888 
419.228959  	124.005315 
420.659775  	103.379005 
422.090590  	61.942221 
423.521406  	78.888300 
424.952221  	121.899858 
426.383037  	109.505648 
427.813853  	1741.743490 
429.244668  	66.086508 
430.675484  	196.939122 
432.106299  	519.883809 
433.537115  	90.916168 
434.967930  	33.860076 
436.398746  	54.222182 
437.829562  	26.579445 
439.260377  	141.092053 
440.691193  	80.222503 
442.122008  	66.059087 
443.552824  	260.192694 
444.983639  	660.021076 
446.414455  	132.400187 
447.845270  	57.119747 
449.276086  	86.246282 
450.706902  	141.504421 
452.137717  	208.341060 
453.568533  	42.971687 
454.999348  	111.425791 
456.430164  	59.848231 
457.860979  	55.066608 
459.291795  	171.642009 
460.722611  	73.262666 
462.153426  	95.092521 
463.584242  	109.287037 
465.015057  	168.413536 
466.445873  	396.962483 
467.876688  	62.795102 
469.307504  	64.526721 
470.738319  	136.277027 
472.169135  	9.376260 
473.599951  	26.950064 
475.030766  	259.207072 
476.461582  	65.079971 
477.892397  	100.988318 
479.323213  	63.345514 
480.754028  	26.025282 
482.184844  	147.679953 
483.615659  	33.255695 
485.046475  	20.284307 
486.477291  	81.071277 
487.908106  	53.950034 
489.338922  	148.076084 
490.769737  	842.021737 
492.200553  	273.590775 
493.631368  	61.687868 
495.062184  	113.273038 
496.493000  	31.354102 
497.923815  	58.965989 
499.354631  	23.712030 
500.785446  	127.008441 
502.216262  	45.815429 
503.647077  	42.721411 
505.077893  	133.189146 
506.508708  	391.973372 
507.939524  	258.469015 
509.370340  	157.309736 
510.801155  	51.695399 
512.231971  	37.173482 
513.662786  	678.400844 
515.093602  	69.452646 
516.524417  	26.273582 
517.955233  	24.419956 
519.386048  	47.312854 
520.816864  	192.959158 
522.247680  	109.628514 
523.678495  	109.364384 
525.109311  	89.302106 
526.540126  	15.120957 
527.970942  	158.650629 
529.401757  	48.050305 
530.832573  	18.890129 
532.263389  	78.259719 
533.694204  	92.668490 
535.125020  	208.752686 
536.555835  	61.570598 
537.986651  	52.659464 
539.417466  	193.335514 
540.848282  	316.112724 
542.279097  	54.380051 
543.709913  	172.349919 
545.140729  	79.965224 
546.571544  	42.619761 
548.002360  	170.714055 
549.433175  	9.610278 
550.863991  	51.471726 
552.294806  	116.307075 
553.725622  	61.172089 
555.156438  	96.395794 
556.587253  	66.841890 
558.018069  	150.972669 
559.448884  	115.779671 
560.879700  	72.707387 
562.310515  	73.709363 
563.741331  	66.290912 
565.172146  	12.554246 
566.602962  	76.536687 
568.033778  	240.159578 
569.464593  	88.768719 
570.895409  	179.218308 
572.326224  	33.772930 
573.757040  	18.701595 
575.187855  	73.718838 
576.618671  	77.090952 
578.049486  	134.400893 
579.480302  	129.190360 
580.911118  	23.666051 
582.341933  	105.896390 
583.772749  	71.150832 
585.203564  	56.989610 
586.634380  	225.025742 
588.065195  	76.687352 
589.496011  	78.316811 
590.926827  	180.594722 
592.357642  	67.654126 
593.788458  	180.506343 
595.219273  	132.981203 
596.650089  	80.132797 
598.080904  	83.465982 
599.511720  	58.671687 
600.942535  	127.349091 
602.373351  	98.428116 
603.804167  	52.231901 
605.234982  	87.586449 
606.665798  	54.054336 
608.096613  	12.209337 
609.527429  	147.838412 
610.958244  	69.768951 
612.389060  	92.842585 
613.819875  	141.113717 
615.250691  	77.223786 
616.681507  	177.179589 
618.112322  	153.434503 
619.543138  	31.991964 
620.973953  	178.503987 
622.404769  	67.621422 
623.835584  	77.764397 
625.266400  	189.948107 
626.697216  	85.196353 
628.128031  	60.432189 
629.558847  	106.970723 
630.989662  	160.561204 
632.420478  	385.176696 
633.851293  	175.612166 
635.282109  	72.184214 
636.712924  	155.645593 
638.143740  	102.215915 
639.574556  	276.865281 
641.005371  	229.267257 
642.436187  	23.771688 
643.867002  	60.461579 
645.297818  	45.387816 
646.728633  	87.461247 
648.159449  	140.341415 
649.590265  	42.221599 
651.021080  	35.586367 
652.451896  	108.437677 
653.882711  	25.507194 
655.313527  	85.855733 
656.744342  	126.761277 
658.175158  	23.895499 
659.605973  	79.550540 
661.036789  	40.783009 
662.467605  	55.686021 
663.898420  	127.383450 
665.329236  	144.405535 
666.760051  	100.410238 
668.190867  	124.051822 
669.621682  	26.217239 
671.052498  	200.255036 
672.483313  	110.260719 
673.914129  	74.242332 
675.344945  	76.518313 
676.775760  	12.644959 
678.206576  	26.995983 
679.637391  	82.202306 
681.068207  	52.434446 
682.499022  	130.039747 
683.929838  	114.272319 
685.360654  	76.369827 
686.791469  	336.859825 
688.222285  	184.296730 
689.653100  	83.132854 
691.083916  	223.358544 
692.514731  	43.494487 
693.945547  	61.386755 
695.376362  	38.368576 
696.807178  	45.958182 
698.237994  	97.342998 
699.668809  	58.248556 
701.099625  	34.134903 
702.530440  	122.694118 
703.961256  	73.712951 
705.392071  	155.558168 
706.822887  	163.385635 
708.253702  	64.848955 
709.684518  	246.143211 
711.115334  	110.585507 
712.546149  	39.945221 
713.976965  	292.711534 
715.407780  	184.287371 
716.838596  	157.570053 
718.269411  	104.391079 
719.700227  	21.889878 
721.131043  	65.792119 
722.561858  	62.230481 
723.992674  	60.484901 
725.423489  	119.538819 
726.854305  	101.199015 
728.285120  	75.837812 
729.715936  	105.374126 
731.146751  	40.142018 
732.577567  	78.531264 
734.008383  	118.437523 
735.439198  	47.442513 
736.870014  	231.733169 
738.300829  	168.564015 
739.731645  	135.650169 
741.162460  	111.860650 
742.593276  	4.022709 
744.024092  	64.925264 
745.454907  	99.001004 
746.885723  	90.748261 
748.316538  	132.546325 
749.747354  	62.737727 
751.178169  	13.092463 
752.608985  	97.827170 
754.039800  	37.335834 
755.470616  	54.690813 
756.901432  	245.483703 
758.332247  	35.058930 
759.763063  	250.563240 
761.193878  	76.254897 
762.624694  	46.153226 
764.055509  	133.786152 
765.486325  	135.615837 
766.917140  	53.222221 
768.347956  	155.377164 
769.778772  	53.443513 
771.209587  	120.912468 
772.640403  	99.743436 
774.071218  	54.547470 
775.502034  	88.152096 
776.932849  	68.203179 
778.363665  	39.824432 
779.794481  	118.150673 
781.225296  	42.408138 
782.656112  	111.743478 
784.086927  	120.713099 
785.517743  	75.775190 
786.948558  	83.007799 
788.379374  	59.294973 
789.810189  	70.185583 
791.241005  	153.272527 
792.671821  	70.069646 
794.102636  	105.067548 
795.533452  	110.951362 
796.964267  	92.579186 
798.395083  	167.320470 
799.825898  	112.751866 
801.256714  	51.236753 
802.687529  	96.518039 
804.118345  	54.671906 
805.549161  	73.342253 
806.979976  	92.836502 
808.410792  	56.026173 
809.841607  	82.828755 
811.272423  	102.615952 
812.703238  	72.457431 
814.134054  	187.362122 
815.564870  	121.718585 
816.995685  	52.210031 
818.426501  	99.749809 
819.857316  	42.899340 
821.288132  	69.676672 
822.718947  	88.561521 
824.149763  	55.245104 
825.580578  	82.209315 
827.011394  	60.273740 
828.442210  	53.430184 
829.873025  	88.407985 
831.303841  	64.874999 
832.734656  	80.212393 
834.165472  	90.955236 
835.596287  	88.189727 
837.027103  	94.716338 
838.457918  	94.456984 
839.888734  	95.110897 
841.319550  	98.994795 
842.750365  	94.479409 
844.181181  	94.093243 
845.611996  	96.103974 
847.042812  	94.870650 
848.473627  	95.952659 
849.904443  	95.607220 
851.335259  	95.029012 
852.766074  	96.362816 
854.196890  	94.822373 
855.627705  	95.125215 
857.058521  	96.392269 
858.489336  	95.206754 
859.920152  	96.087118 
861.350967  	96.584711 
862.781783  	95.699644 
864.212599  	96.874901 
865.643414  	97.309435 
867.074230  	97.214521 
868.505045  	97.246227 
869.935861  	96.334663 
871.366676  	96.691983 
872.797492  	97.118143 
874.228308  	96.952373 
875.659123  	97.545540 
877.089939  	97.227397 
878.520754  	97.061675 
879.951570  	97.565886 
881.382385  	97.274505 
882.813201  	97.924722 
884.244016  	98.548286 
885.674832  	98.140546 
887.105648  	98.518574 
888.536463  	98.639463 
889.967279  	98.420496 
891.398094  	98.593476 
892.828910  	98.276504 
894.259725  	98.109012 
895.690541  	98.044493 
897.121356  	97.875905 
898.552172  	98.283976 
899.982988  	98.343007 
901.413803  	98.252894 
902.844619  	98.472794 
904.275434  	98.220551 
905.706250  	98.353255 
907.137065  	98.755052 
908.567881  	98.653781 
909.998697  	98.845288 
911.429512  	98.824770 
912.860328  	98.630097 
914.291143  	98.931454 
915.721959  	98.677672 
917.152774  	98.299227 
918.583590  	98.445735 
920.014405  	98.292721 
921.445221  	98.111583 
922.876037  	97.898397 
924.306852  	97.547961 
925.737668  	97.547227 
927.168483  	97.312719 
928.599299  	97.049871 
930.030114  	97.234807 
931.460930  	97.262486 
932.891745  	97.398244 
934.322561  	97.646867 
935.753377  	97.620426 
937.184192  	97.694592 
938.615008  	97.683190 
940.045823  	97.610185 
941.476639  	97.662242 
942.907454  	97.415314 
944.338270  	97.159598 
945.769086  	96.956893 
947.199901  	96.516006 
948.630717  	96.168365 
950.061532  	95.736227 
951.492348  	95.324260 
952.923163  	95.261370 
954.353979  	95.178076 
955.784794  	95.300862 
957.215610  	95.555238 
958.646426  	95.588558 
960.077241  	95.833643 
961.508057  	96.017648 
962.938872  	96.016273 
964.369688  	96.183361 
965.800503  	96.063246 
967.231319  	95.804177 
968.662135  	95.593393 
970.092950  	95.086684 
971.523766  	94.715711 
972.954581  	94.203437 
974.385397  	93.137145 
975.816212  	92.033559 
977.247028  	90.596515 
978.677843  	88.754477 
980.108659  	86.571215 
981.539475  	83.655149 
982.970290  	80.502383 
984.401106  	76.709895 
985.831921  	72.171864 
987.262737  	67.120897 
988.693552  	60.907792 
990.124368  	54.550506 
991.555183  	46.915502 
992.985999  	39.100733 
994.416815  	32.744686 
995.847630  	25.261459 
997.278446  	21.212829 
998.709261  	18.983015 
1000.140077  	16.506644 
1001.570892  	17.336377 
1003.001708  	16.477253 
1004.432524  	15.942925 
1005.863339  	17.493699 
1007.294155  	16.246273 
1008.724970  	16.628259 
1010.155786  	17.185157 
1011.586601  	15.872894 
1013.017417  	17.182705 
1014.448232  	16.664326 
1015.879048  	15.879860 
1017.309864  	17.326707 
1018.740679  	16.139276 
1020.171495  	16.563713 
1021.602310  	17.572713 
1023.033126  	16.105295 
1024.463941  	17.175944 
1025.894757  	16.831711 
1027.325572  	15.660057 
1028.756388  	17.300133 
1030.187204  	16.283453 
1031.618019  	16.422680 
1033.048835  	17.878204 
1034.479650  	16.345526 
1035.910466  	17.223331 
1037.341281  	17.483362 
1038.772097  	16.324256 
1040.202913  	17.992886 
1041.633728  	16.995264 
1043.064544  	16.523607 
1044.495359  	17.969150 
1045.926175  	16.340269 
1047.356990  	17.257290 
1048.787806  	18.007779 
1050.218621  	16.380041 
1051.649437  	18.006297 
1053.080253  	17.409934 
1054.511068  	16.515665 
1055.941884  	18.252066 
1057.372699  	16.687560 
1058.803515  	17.009426 
1060.234330  	18.098716 
1061.665146  	16.476278 
1063.095962  	17.990895 
1064.526777  	17.670015 
1065.957593  	16.476086 
1067.388408  	18.324495 
1068.819224  	16.886010 
1070.250039  	17.154622 
1071.680855  	19.092073 
1073.111670  	19.277678 
1074.542486  	25.566371 
1075.973302  	33.827984 
1077.404117  	42.903660 
1078.834933  	53.427560 
1080.265748  	61.557025 
1081.696564  	68.147397 
1083.127379  	73.566782 
1084.558195  	77.598972 
1085.989010  	80.844884 
1087.419826  	83.413208 
1088.850642  	85.385240 
1090.281457  	87.042694 
1091.712273  	88.420347 
1093.143088  	89.502925 
1094.573904  	90.446676 
1096.004719  	91.244116 
1097.435535  	91.852571 
1098.866351  	92.416335 
1100.297166  	92.913141 
1101.727982  	93.332203 
1103.158797  	93.733962 
1104.589613  	94.041169 
1106.020428  	94.361651 
1107.451244  	94.735543 
1108.882059  	95.026697 
1110.312875  	95.349937 
1111.743691  	95.703196 
1113.174506  	95.996157 
1114.605322  	96.334147 
1116.036137  	96.625582 
1117.466953  	96.837379 
1118.897768  	97.086923 
1120.328584  	97.262495 
1121.759399  	97.386675 
1123.190215  	97.569307 
1124.621031  	97.754481 
1126.051846  	97.987670 
1127.482662  	98.284706 
1128.913477  	98.581886 
1130.344293  	98.874617 
1131.775108  	99.106074 
1133.205924  	99.288189 
1134.636740  	99.462317 
1136.067555  	99.602319 
1137.498371  	99.746065 
1138.929186  	99.862176 
1140.360002  	99.916598 
1141.790817  	99.957725 
1143.221633  	99.968502 
1144.652448  	99.979552 
1146.083264  	99.948544 
1147.514080  	99.747300 
1148.944895  	99.374790 
1150.375711  	98.743583 
1151.806526  	97.957934 
1153.237342  	97.542238 
1154.668157  	97.788374 
1156.098973  	98.416596 
1157.529789  	98.890095 
1158.960604  	99.020725 
1160.391420  	99.061876 
1161.822235  	99.102498 
1163.253051  	99.126773 
1164.683866  	99.259499 
1166.114682  	99.433329 
1167.545497  	99.592589 
1168.976313  	99.786036 
1170.407129  	99.918052 
1171.837944  	100.018936 
1173.268760  	100.136100 
1174.699575  	100.194472 
1176.130391  	100.273706 
1177.561206  	100.364140 
1178.992022  	100.392838 
1180.422837  	100.444563 
1181.853653  	100.481882 
1183.284469  	100.477586 
1184.715284  	100.490408 
1186.146100  	100.465322 
1187.576915  	100.435304 
1189.007731  	100.437672 
1190.438546  	100.402484 
1191.869362  	100.350036 
1193.300178  	100.290910 
1194.730993  	100.217191 
1196.161809  	100.154603 
1197.592624  	100.080775 
1199.023440  	100.014170 
1200.454255  	99.965659 
1201.885071  	99.905065 
1203.315886  	99.845193 
1204.746702  	99.774192 
1206.177518  	99.691866 
1207.608333  	99.602177 
1209.039149  	99.483556 
1210.469964  	99.364559 
1211.900780  	99.231210 
1213.331595  	99.093697 
1214.762411  	98.999931 
1216.193226  	98.881057 
1217.624042  	98.753435 
1219.054858  	98.670520 
1220.485673  	98.579747 
1221.916489  	98.527693 
1223.347304  	98.514717 
1224.778120  	98.502035 
1226.208935  	98.579967 
1227.639751  	98.703152 
1229.070567  	98.801460 
1230.501382  	98.928322 
1231.932198  	99.033497 
1233.363013  	99.098545 
1234.793829  	99.151475 
1236.224644  	99.139870 
1237.655460  	99.091967 
1239.086275  	99.011502 
1240.517091  	98.866399 
1241.947907  	98.702296 
1243.378722  	98.514749 
1244.809538  	98.390933 
1246.240353  	98.488687 
1247.671169  	98.784597 
1249.101984  	99.170832 
1250.532800  	99.533598 
1251.963616  	99.774509 
1253.394431  	99.919431 
1254.825247  	99.996149 
1256.256062  	100.017883 
1257.686878  	100.019776 
1259.117693  	99.960638 
1260.548509  	99.859534 
1261.979324  	99.760386 
1263.410140  	99.602551 
1264.840956  	99.369347 
1266.271771  	99.089542 
1267.702587  	98.786679 
1269.133402  	98.468316 
1270.564218  	98.172734 
1271.995033  	98.048094 
1273.425849  	98.146230 
1274.856664  	98.398622 
1276.287480  	98.739040 
1277.718296  	99.037120 
1279.149111  	99.236799 
1280.579927  	99.384043 
1282.010742  	99.431093 
1283.441558  	99.402729 
1284.872373  	99.340286 
1286.303189  	99.152129 
1287.734005  	98.917924 
1289.164820  	98.753231 
1290.595636  	98.575166 
1292.026451  	98.377221 
1293.457267  	98.203327 
1294.888082  	98.038658 
1296.318898  	97.957582 
1297.749713  	98.015923 
1299.180529  	98.151637 
1300.611345  	98.330114 
1302.042160  	98.512995 
1303.472976  	98.662549 
1304.903791  	98.773476 
1306.334607  	98.774067 
1307.765422  	98.649127 
1309.196238  	98.454447 
1310.627053  	98.108772 
1312.057869  	97.580760 
1313.488685  	97.159192 
1314.919500  	97.077348 
1316.350316  	97.292651 
1317.781131  	97.735466 
1319.211947  	98.307363 
1320.642762  	98.886231 
1322.073578  	99.319464 
1323.504394  	99.567845 
1324.935209  	99.750702 
1326.366025  	99.910326 
1327.796840  	100.017450 
1329.227656  	100.108332 
1330.658471  	100.184897 
1332.089287  	100.255730 
1333.520102  	100.324930 
1334.950918  	100.290536 
1336.381734  	100.138207 
1337.812549  	99.886252 
1339.243365  	99.624776 
1340.674180  	99.804309 
1342.104996  	100.254712 
1343.535811  	100.391021 
1344.966627  	100.327131 
1346.397443  	100.347698 
1347.828258  	100.305639 
1349.259074  	100.228725 
1350.689889  	100.233462 
1352.120705  	100.203479 
1353.551520  	100.108602 
1354.982336  	100.012430 
1356.413151  	99.960233 
1357.843967  	99.929127 
1359.274783  	99.840499 
1360.705598  	99.583702 
1362.136414  	99.134116 
1363.567229  	99.050454 
1364.998045  	99.457548 
1366.428860  	99.619854 
1367.859676  	99.382441 
1369.290491  	99.274436 
1370.721307  	99.428053 
1372.152123  	99.426247 
1373.582938  	99.082656 
1375.013754  	99.012157 
1376.444569  	99.334700 
1377.875385  	99.391708 
1379.306200  	99.381978 
1380.737016  	99.580036 
1382.167832  	99.650351 
1383.598647  	99.759906 
1385.029463  	99.832384 
1386.460278  	99.449849 
1387.891094  	99.311994 
1389.321909  	99.643949 
1390.752725  	99.845797 
1392.183540  	99.944858 
1393.614356  	99.687935 
1395.045172  	99.200891 
1396.475987  	99.367088 
1397.906803  	99.499883 
1399.337618  	99.335008 
1400.768434  	99.645531 
1402.199249  	99.936239 
1403.630065  	99.721798 
1405.060880  	99.484081 
1406.491696  	99.588086 
1407.922512  	99.694222 
1409.353327  	99.563834 
1410.784143  	99.282294 
1412.214958  	99.100657 
1413.645774  	98.842827 
1415.076589  	98.200840 
1416.507405  	97.372090 
1417.938221  	96.272518 
1419.369036  	94.752111 
1420.799852  	94.198549 
1422.230667  	94.081548 
1423.661483  	93.624707 
1425.092298  	93.683848 
1426.523114  	94.320476 
1427.953929  	94.767522 
1429.384745  	95.207591 
1430.815561  	95.726980 
1432.246376  	96.047056 
1433.677192  	96.354605 
1435.108007  	96.334414 
1436.538823  	95.377929 
1437.969638  	94.965793 
1439.400454  	94.784748 
1440.831270  	93.774377 
1442.262085  	92.432305 
1443.692901  	91.156099 
1445.123716  	90.170399 
1446.554532  	89.767206 
1447.985347  	90.041482 
1449.416163  	91.209818 
1450.846978  	92.423666 
1452.277794  	93.229169 
1453.708610  	93.841123 
1455.139425  	94.025542 
1456.570241  	92.762891 
1458.001056  	91.512383 
1459.431872  	91.069938 
1460.862687  	90.397202 
1462.293503  	89.691600 
1463.724318  	88.798527 
1465.155134  	88.385563 
1466.585950  	88.926161 
1468.016765  	89.897436 
1469.447581  	91.176409 
1470.878396  	92.191755 
1472.309212  	93.304682 
1473.740027  	94.993239 
1475.170843  	96.175617 
1476.601659  	97.075182 
1478.032474  	97.949231 
1479.463290  	98.521530 
1480.894105  	98.624309 
1482.324921  	98.713078 
1483.755736  	99.061535 
1485.186552  	99.134273 
1486.617367  	98.918637 
1488.048183  	98.747655 
1489.478999  	98.371301 
1490.909814  	98.436666 
1492.340630  	99.177634 
1493.771445  	99.627972 
1495.202261  	99.505332 
1496.633076  	99.190018 
1498.063892  	99.235511 
1499.494707  	99.374208 
1500.925523  	99.424745 
1502.356339  	99.693511 
1503.787154  	100.184032 
1505.217970  	100.050588 
1506.648785  	98.035607 
1508.079601  	97.663779 
1509.510416  	98.616166 
1510.941232  	99.111252 
1512.372048  	99.286883 
1513.802863  	99.524990 
1515.233679  	99.395891 
1516.664494  	98.781130 
1518.095310  	99.161092 
1519.526125  	99.708690 
1520.956941  	99.001311 
1522.387756  	98.760824 
1523.818572  	99.370585 
1525.249388  	99.205079 
1526.680203  	98.939220 
1528.111019  	99.200624 
1529.541834  	99.459561 
1530.972650  	99.754769 
1532.403465  	99.590597 
1533.834281  	98.887060 
1535.265096  	99.394255 
1536.695912  	100.181510 
1538.126728  	100.299594 
1539.557543  	99.335283 
1540.988359  	98.804632 
1542.419174  	99.061219 
1543.849990  	98.908603 
1545.280805  	98.819359 
1546.711621  	99.590585 
1548.142437  	99.850811 
1549.573252  	99.151322 
1551.004068  	99.363972 
1552.434883  	99.952359 
1553.865699  	99.540944 
1555.296514  	99.527237 
1556.727330  	100.352563 
1558.158145  	99.616754 
1559.588961  	97.520175 
1561.019777  	98.976805 
1562.450592  	99.983695 
1563.881408  	100.011256 
1565.312223  	99.811942 
1566.743039  	100.246374 
1568.173854  	100.506387 
1569.604670  	100.059382 
1571.035486  	100.163245 
1572.466301  	100.810122 
1573.897117  	101.266337 
1575.327932  	100.973130 
1576.758748  	100.277880 
1578.189563  	100.567510 
1579.620379  	100.945776 
1581.051194  	100.890469 
1582.482010  	100.872088 
1583.912826  	100.994983 
1585.343641  	101.015086 
1586.774457  	101.074288 
1588.205272  	101.080531 
1589.636088  	100.982344 
1591.066903  	100.958215 
1592.497719  	100.894426 
1593.928534  	100.708324 
1595.359350  	100.423737 
1596.790166  	99.999266 
1598.220981  	99.272458 
1599.651797  	97.971442 
1601.082612  	96.442952 
1602.513428  	95.433942 
1603.944243  	95.451958 
1605.375059  	96.625258 
1606.805875  	98.108294 
1608.236690  	99.299565 
1609.667506  	100.183722 
1611.098321  	100.645118 
1612.529137  	101.138267 
1613.959952  	102.006618 
1615.390768  	102.152992 
1616.821583  	100.882089 
1618.252399  	101.063401 
1619.683215  	102.479734 
1621.114030  	103.424065 
1622.544846  	102.999409 
1623.975661  	102.767708 
1625.406477  	103.916264 
1626.837292  	104.538945 
1628.268108  	104.345674 
1629.698923  	104.901095 
1631.129739  	106.057060 
1632.560555  	107.442538 
1633.991370  	108.306965 
1635.422186  	106.370974 
1636.853001  	105.557910 
1638.283817  	107.597666 
1639.714632  	108.746608 
1641.145448  	109.121963 
1642.576264  	110.283156 
1644.007079  	111.593474 
1645.437895  	111.598628 
1646.868710  	109.556052 
1648.299526  	109.669375 
1649.730341  	113.030579 
1651.161157  	116.100815 
1652.591972  	112.073279 
1654.022788  	107.693889 
1655.453604  	111.523370 
1656.884419  	113.716856 
1658.315235  	114.464705 
1659.746050  	115.454106 
1661.176866  	115.921468 
1662.607681  	114.557236 
1664.038497  	114.104924 
1665.469313  	115.589640 
1666.900128  	116.483173 
1668.330944  	115.330574 
1669.761759  	113.102642 
1671.192575  	112.372531 
1672.623390  	113.410764 
1674.054206  	113.143450 
1675.485021  	109.931222 
1676.915837  	109.650074 
1678.346653  	110.100755 
1679.777468  	108.561757 
1681.208284  	108.447098 
1682.639099  	108.866553 
1684.069915  	104.660059 
1685.500730  	103.687504 
1686.931546  	104.821575 
1688.362361  	104.398792 
1689.793177  	103.764639 
1691.223993  	103.583379 
1692.654808  	103.912251 
1694.085624  	104.135949 
1695.516439  	102.167296 
1696.947255  	101.701326 
1698.378070  	103.070300 
1699.808886  	101.445395 
1701.239702  	99.756117 
1702.670517  	101.265470 
1704.101333  	101.478804 
1705.532148  	100.506096 
1706.962964  	100.615784 
1708.393779  	100.802799 
1709.824595  	100.629212 
1711.255410  	100.730150 
1712.686226  	100.718358 
1714.117042  	100.372607 
1715.547857  	100.239950 
1716.978673  	99.706574 
1718.409488  	98.966903 
1719.840304  	99.576840 
1721.271119  	100.194448 
1722.701935  	100.061060 
1724.132750  	99.884059 
1725.563566  	100.099351 
1726.994382  	100.245719 
1728.425197  	100.031478 
1729.856013  	99.697790 
1731.286828  	100.026247 
1732.717644  	100.185446 
1734.148459  	98.727645 
1735.579275  	99.017977 
1737.010091  	100.129534 
1738.440906  	100.044148 
1739.871722  	99.531662 
1741.302537  	99.737934 
1742.733353  	99.520822 
1744.164168  	99.368498 
1745.594984  	99.677579 
1747.025799  	99.569787 
1748.456615  	99.338959 
1749.887431  	99.181466 
1751.318246  	98.784579 
1752.749062  	99.135480 
1754.179877  	99.728091 
1755.610693  	99.516833 
1757.041508  	98.966806 
1758.472324  	99.189299 
1759.903140  	99.438208 
1761.333955  	99.005385 
1762.764771  	98.697573 
1764.195586  	99.165020 
1765.626402  	99.435971 
1767.057217  	98.961094 
1768.488033  	98.836862 
1769.918848  	99.397727 
1771.349664  	99.226937 
1772.780480  	98.586206 
1774.211295  	98.845785 
1775.642111  	99.052035 
1777.072926  	99.111347 
1778.503742  	99.229349 
1779.934557  	98.952842 
1781.365373  	98.829035 
1782.796188  	99.107898 
1784.227004  	98.947358 
1785.657820  	98.771432 
1787.088635  	99.068134 
1788.519451  	99.229493 
1789.950266  	99.132169 
1791.381082  	98.720122 
1792.811897  	98.361602 
1794.242713  	98.640988 
1795.673529  	98.825181 
1797.104344  	98.871647 
1798.535160  	99.032312 
1799.965975  	98.728169 
1801.396791  	98.341092 
1802.827606  	98.603002 
1804.258422  	98.874816 
1805.689237  	98.925093 
1807.120053  	98.928639 
1808.550869  	98.879512 
1809.981684  	98.792379 
1811.412500  	98.600945 
1812.843315  	98.659436 
1814.274131  	98.968267 
1815.704946  	98.898101 
1817.135762  	98.742542 
1818.566577  	98.881523 
1819.997393  	98.859021 
1821.428209  	98.906852 
1822.859024  	99.015726 
1824.289840  	98.586515 
1825.720655  	98.431005 
1827.151471  	98.915504 
1828.582286  	98.882943 
1830.013102  	98.386055 
1831.443918  	98.570588 
1832.874733  	98.977112 
1834.305549  	99.067711 
1835.736364  	99.066950 
1837.167180  	99.148200 
1838.597995  	99.189854 
1840.028811  	99.336174 
1841.459626  	99.543234 
1842.890442  	99.328029 
1844.321258  	98.888014 
1845.752073  	99.041679 
1847.182889  	99.283599 
1848.613704  	99.330584 
1850.044520  	99.480630 
1851.475335  	99.624945 
1852.906151  	99.597603 
1854.336967  	99.607371 
1855.767782  	99.648534 
1857.198598  	99.602328 
1858.629413  	99.575057 
1860.060229  	99.568453 
1861.491044  	99.563588 
1862.921860  	99.615270 
1864.352675  	99.655211 
1865.783491  	99.657913 
1867.214307  	99.499289 
1868.645122  	99.097474 
1870.075938  	99.085310 
1871.506753  	99.460249 
1872.937569  	99.605072 
1874.368384  	99.566948 
1875.799200  	99.584205 
1877.230015  	99.539968 
1878.660831  	99.488919 
1880.091647  	99.502586 
1881.522462  	99.523196 
1882.953278  	99.532593 
1884.384093  	99.453656 
1885.814909  	99.465345 
1887.245724  	99.568216 
1888.676540  	99.341077 
1890.107356  	99.142161 
1891.538171  	99.416760 
1892.968987  	99.538457 
1894.399802  	99.376299 
1895.830618  	99.382836 
1897.261433  	99.497280 
1898.692249  	99.556470 
1900.123064  	99.571643 
1901.553880  	99.561801 
1902.984696  	99.604869 
1904.415511  	99.635277 
1905.846327  	99.637390 
1907.277142  	99.643391 
1908.707958  	99.546420 
1910.138773  	99.536793 
1911.569589  	99.692095 
1913.000404  	99.736663 
1914.431220  	99.813091 
1915.862036  	99.909002 
1917.292851  	99.656089 
1918.723667  	99.541314 
1920.154482  	99.818004 
1921.585298  	99.770960 
1923.016113  	99.550601 
1924.446929  	99.751263 
1925.877745  	99.948920 
1927.308560  	99.921274 
1928.739376  	99.935435 
1930.170191  	99.960466 
1931.601007  	99.937734 
1933.031822  	99.929586 
1934.462638  	99.934477 
1935.893453  	99.951895 
1937.324269  	99.941760 
1938.755085  	99.968695 
1940.185900  	99.978393 
1941.616716  	99.731789 
1943.047531  	99.576893 
1944.478347  	99.794802 
1945.909162  	99.894040 
1947.339978  	99.846041 
1948.770794  	99.892491 
1950.201609  	99.878004 
1951.632425  	99.840711 
1953.063240  	99.840336 
1954.494056  	99.756590 
1955.924871  	99.721883 
1957.355687  	99.736452 
1958.786502  	99.687232 
1960.217318  	99.653636 
1961.648134  	99.601469 
1963.078949  	99.567435 
1964.509765  	99.564504 
1965.940580  	99.380484 
1967.371396  	99.205770 
1968.802211  	99.288844 
1970.233027  	99.350439 
1971.663842  	99.298959 
1973.094658  	99.255739 
1974.525474  	99.197144 
1975.956289  	99.135355 
1977.387105  	99.074119 
1978.817920  	98.989129 
1980.248736  	98.908396 
1981.679551  	98.796303 
1983.110367  	98.654220 
1984.541183  	98.528732 
1985.971998  	98.332029 
1987.402814  	98.051850 
1988.833629  	97.854340 
1990.264445  	97.642043 
1991.695260  	97.250804 
1993.126076  	97.091484 
1994.556891  	97.321129 
1995.987707  	97.482539 
1997.418523  	97.609053 
1998.849338  	97.898384 
2000.280154  	98.154144 
2001.710969  	98.396764 
2003.141785  	98.663064 
2004.572600  	98.839971 
2006.003416  	98.999315 
2007.434231  	99.118242 
2008.865047  	99.182590 
2010.295863  	99.288303 
2011.726678  	99.339286 
2013.157494  	99.368294 
2014.588309  	99.408345 
2016.019125  	99.279022 
2017.449940  	99.164689 
2018.880756  	99.241163 
2020.311572  	99.280099 
2021.742387  	99.255206 
2023.173203  	99.220502 
2024.604018  	99.155215 
2026.034834  	99.110643 
2027.465649  	99.034710 
2028.896465  	98.939443 
2030.327280  	98.867930 
2031.758096  	98.743644 
2033.188912  	98.628708 
2034.619727  	98.524568 
2036.050543  	98.372507 
2037.481358  	98.272406 
2038.912174  	98.152614 
2040.342989  	97.953993 
2041.773805  	97.820583 
2043.204621  	97.748211 
2044.635436  	97.680840 
2046.066252  	97.593652 
2047.497067  	97.490901 
2048.927883  	97.433185 
2050.358698  	97.356366 
2051.789514  	97.266575 
2053.220329  	97.221171 
2054.651145  	97.131208 
2056.081961  	97.045168 
2057.512776  	96.990626 
2058.943592  	96.879821 
2060.374407  	96.807254 
2061.805223  	96.773902 
2063.236038  	96.670230 
2064.666854  	96.555951 
2066.097669  	96.528053 
2067.528485  	96.606255 
2068.959301  	96.664882 
2070.390116  	96.654754 
2071.820932  	96.694596 
2073.251747  	96.722767 
2074.682563  	96.720025 
2076.113378  	96.767897 
2077.544194  	96.767863 
2078.975010  	96.751107 
2080.405825  	96.767192 
2081.836641  	96.729734 
2083.267456  	96.712157 
2084.698272  	96.697884 
2086.129087  	96.638201 
2087.559903  	96.608940 
2088.990718  	96.519250 
2090.421534  	96.415831 
2091.852350  	96.395439 
2093.283165  	96.298508 
2094.713981  	96.160239 
2096.144796  	96.025744 
2097.575612  	95.809747 
2099.006427  	95.598329 
2100.437243  	95.341391 
2101.868058  	95.003162 
2103.298874  	94.671764 
2104.729690  	94.247172 
2106.160505  	93.779605 
2107.591321  	93.299050 
2109.022136  	92.689940 
2110.452952  	92.066333 
2111.883767  	91.330544 
2113.314583  	90.380733 
2114.745399  	89.346865 
2116.176214  	88.057025 
2117.607030  	86.544270 
2119.037845  	84.840191 
2120.468661  	82.764736 
2121.899476  	80.960547 
2123.330292  	80.094182 
2124.761107  	81.047654 
2126.191923  	84.419688 
2127.622739  	88.587320 
2129.053554  	92.187238 
2130.484370  	94.728106 
2131.915185  	96.248881 
2133.346001  	97.213998 
2134.776816  	97.875359 
2136.207632  	98.309155 
2137.638448  	98.676387 
2139.069263  	98.959176 
2140.500079  	99.149356 
2141.930894  	99.338891 
2143.361710  	99.468791 
2144.792525  	99.552432 
2146.223341  	99.642776 
2147.654156  	99.692397 
2149.084972  	99.746305 
2150.515788  	99.805815 
2151.946603  	99.843216 
2153.377419  	99.914338 
2154.808234  	99.979224 
2156.239050  	100.033314 
2157.669865  	100.110681 
2159.100681  	100.158719 
2160.531496  	100.207812 
2161.962312  	100.268186 
2163.393128  	100.307620 
2164.823943  	100.366368 
2166.254759  	100.407175 
2167.685574  	100.424243 
2169.116390  	100.461251 
2170.547205  	100.470993 
2171.978021  	100.480581 
2173.408837  	100.504226 
2174.839652  	100.495092 
2176.270468  	100.500864 
2177.701283  	100.505363 
2179.132099  	100.485211 
2180.562914  	100.482747 
2181.993730  	100.457065 
2183.424545  	100.423384 
2184.855361  	100.403125 
2186.286177  	100.348631 
2187.716992  	100.305920 
2189.147808  	100.267414 
2190.578623  	100.198094 
2192.009439  	100.144615 
2193.440254  	100.073052 
2194.871070  	99.985482 
2196.301885  	99.910888 
2197.732701  	99.804697 
2199.163517  	99.704380 
2200.594332  	99.604898 
2202.025148  	99.470182 
2203.455963  	99.350285 
2204.886779  	99.209258 
2206.317594  	99.047973 
2207.748410  	98.900756 
2209.179226  	98.705527 
2210.610041  	98.505129 
2212.040857  	98.306598 
2213.471672  	98.048706 
2214.902488  	97.790944 
2216.333303  	97.502503 
2217.764119  	97.156113 
2219.194934  	96.794548 
2220.625750  	96.349689 
2222.056566  	95.847079 
2223.487381  	95.286394 
2224.918197  	94.579891 
2226.349012  	93.793355 
2227.779828  	92.876843 
2229.210643  	91.793397 
2230.641459  	90.634493 
2232.072275  	89.284933 
2233.503090  	87.782221 
2234.933906  	86.140058 
2236.364721  	84.116850 
2237.795537  	81.742626 
2239.226352  	78.715022 
2240.657168  	74.721463 
2242.087983  	70.156561 
2243.518799  	64.907829 
2244.949615  	59.949816 
2246.380430  	56.329978 
2247.811246  	53.344333 
2249.242061  	52.361553 
2250.672877  	53.007545 
2252.103692  	55.512909 
2253.534508  	61.569551 
2254.965323  	69.233873 
2256.396139  	77.187854 
2257.826955  	83.955934 
2259.257770  	88.631021 
2260.688586  	91.771692 
2262.119401  	93.826133 
2263.550217  	95.117020 
2264.981032  	96.043449 
2266.411848  	96.701368 
2267.842664  	97.164151 
2269.273479  	97.564577 
2270.704295  	97.862863 
2272.135110  	98.096628 
2273.565926  	98.308255 
2274.996741  	98.454517 
2276.427557  	98.592943 
2277.858372  	98.708235 
2279.289188  	98.777503 
2280.720004  	98.865833 
2282.150819  	98.931143 
2283.581635  	98.989296 
2285.012450  	99.080969 
2286.443266  	99.136558 
2287.874081  	99.191215 
2289.304897  	99.258546 
2290.735712  	99.289087 
2292.166528  	99.335003 
2293.597344  	99.377967 
2295.028159  	99.396282 
2296.458975  	99.433563 
2297.889790  	99.455563 
2299.320606  	99.485561 
2300.751421  	99.546561 
2302.182237  	99.588812 
2303.613053  	99.650510 
2305.043868  	99.738220 
2306.474684  	99.829178 
2307.905499  	99.957114 
2309.336315  	100.086527 
2310.767130  	100.204076 
2312.197946  	100.332187 
2313.628761  	100.453031 
2315.059577  	100.615314 
2316.490393  	100.839973 
2317.921208  	101.080761 
2319.352024  	101.322293 
2320.782839  	101.539250 
2322.213655  	101.726103 
2323.644470  	101.894442 
2325.075286  	102.077393 
2326.506101  	102.330231 
2327.936917  	102.583663 
2329.367733  	102.776038 
2330.798548  	102.932441 
2332.229364  	103.029948 
2333.660179  	103.132179 
2335.090995  	103.276720 
2336.521810  	103.387583 
2337.952626  	103.518098 
2339.383442  	103.658297 
2340.814257  	103.700658 
2342.245073  	103.682371 
2343.675888  	103.538924 
2345.106704  	103.079695 
2346.537519  	102.489547 
2347.968335  	102.329281 
2349.399150  	102.820751 
2350.829966  	103.655642 
2352.260782  	104.360198 
2353.691597  	104.897289 
2355.122413  	105.371648 
2356.553228  	105.686856 
2357.984044  	105.907219 
2359.414859  	105.989276 
2360.845675  	105.916479 
2362.276491  	105.800594 
2363.707306  	105.550092 
2365.138122  	105.224207 
2366.568937  	104.890669 
2367.999753  	104.469422 
2369.430568  	104.039589 
2370.861384  	103.612705 
2372.292199  	103.172895 
2373.723015  	102.766770 
2375.153831  	102.368638 
2376.584646  	102.004261 
2378.015462  	101.685364 
2379.446277  	101.411796 
2380.877093  	101.228136 
2382.307908  	101.102144 
2383.738724  	101.027561 
2385.169539  	101.011854 
2386.600355  	100.999862 
2388.031171  	101.005571 
2389.461986  	101.025332 
2390.892802  	101.025437 
2392.323617  	101.038532 
2393.754433  	101.040726 
2395.185248  	101.029266 
2396.616064  	101.043629 
2398.046880  	101.045952 
2399.477695  	101.052405 
2400.908511  	101.072246 
2402.339326  	101.065242 
2403.770142  	101.077076 
2405.200957  	101.096489 
2406.631773  	101.094707 
2408.062588  	101.116955 
2409.493404  	101.131890 
2410.924220  	101.141990 
2412.355035  	101.176769 
2413.785851  	101.188564 
2415.216666  	101.208165 
2416.647482  	101.246480 
2418.078297  	101.258076 
2419.509113  	101.282724 
2420.939928  	101.310808 
2422.370744  	101.322557 
2423.801560  	101.354078 
2425.232375  	101.373836 
2426.663191  	101.384490 
2428.094006  	101.414457 
2429.524822  	101.441177 
2430.955637  	101.483306 
2432.386453  	101.535535 
2433.817269  	101.580350 
2435.248084  	101.641909 
2436.678900  	101.696835 
2438.109715  	101.738195 
2439.540531  	101.781157 
2440.971346  	101.811617 
2442.402162  	101.844206 
2443.832977  	101.871769 
2445.263793  	101.887337 
2446.694609  	101.912161 
2448.125424  	101.924721 
2449.556240  	101.935075 
2450.987055  	101.955000 
2452.417871  	101.956629 
2453.848686  	101.962705 
2455.279502  	101.964839 
2456.710318  	101.949252 
2458.141133  	101.951082 
2459.571949  	101.941533 
2461.002764  	101.924039 
2462.433580  	101.927306 
2463.864395  	101.911093 
2465.295211  	101.898979 
2466.726026  	101.901794 
2468.156842  	101.884249 
2469.587658  	101.883788 
2471.018473  	101.886234 
2472.449289  	101.869420 
2473.880104  	101.868173 
2475.310920  	101.851179 
2476.741735  	101.823593 
2478.172551  	101.815066 
2479.603366  	101.791350 
2481.034182  	101.769181 
2482.464998  	101.754659 
2483.895813  	101.728371 
2485.326629  	101.716627 
2486.757444  	101.699541 
2488.188260  	101.671669 
2489.619075  	101.662967 
2491.049891  	101.650371 
2492.480707  	101.634445 
2493.911522  	101.622064 
2495.342338  	101.602282 
2496.773153  	101.592156 
2498.203969  	101.580981 
2499.634784  	101.567252 
2501.065600  	101.562171 
2502.496415  	101.547281 
2503.927231  	101.540732 
2505.358047  	101.545174 
2506.788862  	101.544590 
2508.219678  	101.559074 
2509.650493  	101.574862 
2511.081309  	101.595727 
2512.512124  	101.638171 
2513.942940  	101.675636 
2515.373755  	101.727738 
2516.804571  	101.792079 
2518.235387  	101.839063 
2519.666202  	101.896883 
2521.097018  	101.948921 
2522.527833  	101.988622 
2523.958649  	102.043613 
2525.389464  	102.075186 
2526.820280  	102.095504 
2528.251096  	102.130196 
2529.681911  	102.144451 
2531.112727  	102.157565 
2532.543542  	102.167281 
2533.974358  	102.157723 
2535.405173  	102.162764 
2536.835989  	102.155479 
2538.266804  	102.131946 
2539.697620  	102.121176 
2541.128436  	102.089674 
2542.559251  	102.052100 
2543.990067  	102.021532 
2545.420882  	101.972544 
2546.851698  	101.934337 
2548.282513  	101.901505 
2549.713329  	101.866018 
2551.144145  	101.858460 
2552.574960  	101.858765 
2554.005776  	101.867868 
2555.436591  	101.889773 
2556.867407  	101.901539 
2558.298222  	101.924398 
2559.729038  	101.946051 
2561.159853  	101.951252 
2562.590669  	101.966573 
2564.021485  	101.975588 
2565.452300  	101.979459 
2566.883116  	101.988144 
2568.313931  	101.982376 
2569.744747  	101.979990 
2571.175562  	101.979823 
2572.606378  	101.975673 
2574.037193  	101.981138 
2575.468009  	101.971602 
2576.898825  	101.961145 
2578.329640  	101.963397 
2579.760456  	101.950455 
2581.191271  	101.948770 
2582.622087  	101.954673 
2584.052902  	101.950060 
2585.483718  	101.969366 
2586.914534  	101.993135 
2588.345349  	102.018462 
2589.776165  	102.065810 
2591.206980  	102.105289 
2592.637796  	102.159395 
2594.068611  	102.229709 
2595.499427  	102.279355 
2596.930242  	102.338908 
2598.361058  	102.396111 
2599.791874  	102.434586 
2601.222689  	102.486095 
2602.653505  	102.524797 
2604.084320  	102.554507 
2605.515136  	102.594530 
2606.945951  	102.614960 
2608.376767  	102.636777 
2609.807582  	102.664704 
2611.238398  	102.680095 
2612.669214  	102.709564 
2614.100029  	102.737020 
2615.530845  	102.752747 
2616.961660  	102.775553 
2618.392476  	102.786977 
2619.823291  	102.798140 
2621.254107  	102.814017 
2622.684923  	102.815750 
2624.115738  	102.821046 
2625.546554  	102.825632 
2626.977369  	102.826888 
2628.408185  	102.834873 
2629.839000  	102.832121 
2631.269816  	102.832529 
2632.700631  	102.837304 
2634.131447  	102.827146 
2635.562263  	102.820183 
2636.993078  	102.808656 
2638.423894  	102.791088 
2639.854709  	102.780010 
2641.285525  	102.754053 
2642.716340  	102.731480 
2644.147156  	102.718688 
2645.577972  	102.693904 
2647.008787  	102.683866 
2648.439603  	102.680973 
2649.870418  	102.672793 
2651.301234  	102.678120 
2652.732049  	102.675516 
2654.162865  	102.676043 
2655.593680  	102.689767 
2657.024496  	102.687610 
2658.455312  	102.691070 
2659.886127  	102.695154 
2661.316943  	102.684925 
2662.747758  	102.690847 
2664.178574  	102.693093 
2665.609389  	102.691714 
2667.040205  	102.707465 
2668.471020  	102.711749 
2669.901836  	102.723825 
2671.332652  	102.752002 
2672.763467  	102.769140 
2674.194283  	102.797620 
2675.625098  	102.829546 
2677.055914  	102.857626 
2678.486729  	102.901139 
2679.917545  	102.933967 
2681.348361  	102.965078 
2682.779176  	103.009018 
2684.209992  	103.041102 
2685.640807  	103.075077 
2687.071623  	103.106383 
2688.502438  	103.128188 
2689.933254  	103.164433 
2691.364069  	103.195113 
2692.794885  	103.218462 
2694.225701  	103.246157 
2695.656516  	103.260947 
2697.087332  	103.279921 
2698.518147  	103.300126 
2699.948963  	103.308949 
2701.379778  	103.327582 
2702.810594  	103.342126 
2704.241409  	103.352199 
2705.672225  	103.366174 
2707.103041  	103.366172 
2708.533856  	103.373910 
2709.964672  	103.383966 
2711.395487  	103.378101 
2712.826303  	103.384416 
2714.257118  	103.386661 
2715.687934  	103.380288 
2717.118750  	103.382767 
2718.549565  	103.367464 
2719.980381  	103.353949 
2721.411196  	103.351387 
2722.842012  	103.330181 
2724.272827  	103.314541 
2725.703643  	103.297819 
2727.134458  	103.267293 
2728.565274  	103.249978 
2729.996090  	103.228974 
2731.426905  	103.210289 
2732.857721  	103.206023 
2734.288536  	103.190204 
2735.719352  	103.180685 
2737.150167  	103.173801 
2738.580983  	103.153206 
2740.011799  	103.143601 
2741.442614  	103.129587 
2742.873430  	103.112711 
2744.304245  	103.111998 
2745.735061  	103.103306 
2747.165876  	103.097457 
2748.596692  	103.096732 
2750.027507  	103.086257 
2751.458323  	103.088815 
2752.889139  	103.089672 
2754.319954  	103.082145 
2755.750770  	103.086248 
2757.181585  	103.085018 
2758.612401  	103.088267 
2760.043216  	103.100729 
2761.474032  	103.110372 
2762.904847  	103.140105 
2764.335663  	103.173181 
2765.766479  	103.201173 
2767.197294  	103.248614 
2768.628110  	103.291076 
2770.058925  	103.330224 
2771.489741  	103.377018 
2772.920556  	103.406371 
2774.351372  	103.432499 
2775.782188  	103.459727 
2777.213003  	103.482105 
2778.643819  	103.514312 
2780.074634  	103.536547 
2781.505450  	103.552226 
2782.936265  	103.575609 
2784.367081  	103.590728 
2785.797896  	103.613490 
2787.228712  	103.637514 
2788.659528  	103.645485 
2790.090343  	103.658074 
2791.521159  	103.663161 
2792.951974  	103.661219 
2794.382790  	103.665928 
2795.813605  	103.658880 
2797.244421  	103.655785 
2798.675236  	103.653907 
2800.106052  	103.636599 
2801.536868  	103.632869 
2802.967683  	103.631761 
2804.398499  	103.626393 
2805.829314  	103.633781 
2807.260130  	103.631093 
2808.690945  	103.629835 
2810.121761  	103.633921 
2811.552577  	103.622144 
2812.983392  	103.623147 
2814.414208  	103.625192 
2815.845023  	103.611913 
2817.275839  	103.611984 
2818.706654  	103.605061 
2820.137470  	103.593537 
2821.568285  	103.595988 
2822.999101  	103.584739 
2824.429917  	103.575246 
2825.860732  	103.574401 
2827.291548  	103.562613 
2828.722363  	103.559944 
2830.153179  	103.559759 
2831.583994  	103.557314 
2833.014810  	103.567574 
2834.445626  	103.573300 
2835.876441  	103.580806 
2837.307257  	103.597342 
2838.738072  	103.610969 
2840.168888  	103.630857 
2841.599703  	103.653473 
2843.030519  	103.691512 
2844.461334  	103.767195 
2845.892150  	103.863933 
2847.322966  	103.954724 
2848.753781  	103.981421 
2850.184597  	103.922520 
2851.615412  	103.843239 
2853.046228  	103.770528 
2854.477043  	103.717135 
2855.907859  	103.699707 
2857.338674  	103.686217 
2858.769490  	103.680425 
2860.200306  	103.682035 
2861.631121  	103.670651 
2863.061937  	103.673900 
2864.492752  	103.674939 
2865.923568  	103.657034 
2867.354383  	103.648080 
2868.785199  	103.631736 
2870.216015  	103.624301 
2871.646830  	103.633139 
2873.077646  	103.609473 
2874.508461  	103.585097 
2875.939277  	103.584692 
2877.370092  	103.590537 
2878.800908  	103.626043 
2880.231723  	103.673297 
2881.662539  	103.726758 
2883.093355  	103.805172 
2884.524170  	103.868158 
2885.954986  	103.918588 
2887.385801  	103.965965 
2888.816617  	103.979354 
2890.247432  	103.980481 
2891.678248  	103.977059 
2893.109063  	103.967426 
2894.539879  	103.974141 
2895.970695  	103.969363 
2897.401510  	103.949444 
2898.832326  	103.935124 
2900.263141  	103.910888 
2901.693957  	103.888979 
2903.124772  	103.868324 
2904.555588  	103.833216 
2905.986404  	103.804088 
2907.417219  	103.784577 
2908.848035  	103.785056 
2910.278850  	103.817228 
2911.709666  	103.866249 
2913.140481  	103.927211 
2914.571297  	103.959547 
2916.002112  	103.924372 
2917.432928  	103.837265 
2918.863744  	103.708724 
2920.294559  	103.578432 
2921.725375  	103.480632 
2923.156190  	103.402549 
2924.587006  	103.364598 
2926.017821  	103.363149 
2927.448637  	103.378976 
2928.879453  	103.416612 
2930.310268  	103.435652 
2931.741084  	103.442827 
2933.171899  	103.470017 
2934.602715  	103.483014 
2936.033530  	103.497808 
2937.464346  	103.525781 
2938.895161  	103.540844 
2940.325977  	103.580518 
2941.756793  	103.640663 
2943.187608  	103.697450 
2944.618424  	103.774229 
2946.049239  	103.841425 
2947.480055  	103.892835 
2948.910870  	103.957611 
2950.341686  	104.011099 
2951.772501  	104.047659 
2953.203317  	104.066036 
2954.634133  	104.058563 
2956.064948  	104.051784 
2957.495764  	104.040168 
2958.926579  	104.017436 
2960.357395  	103.994615 
2961.788210  	103.958308 
2963.219026  	103.914912 
2964.649842  	103.861932 
2966.080657  	103.792593 
2967.511473  	103.725410 
2968.942288  	103.648784 
2970.373104  	103.569375 
2971.803919  	103.500588 
2973.234735  	103.424540 
2974.665550  	103.370986 
2976.096366  	103.350489 
2977.527182  	103.339804 
2978.957997  	103.355431 
2980.388813  	103.380731 
2981.819628  	103.397133 
2983.250444  	103.415633 
2984.681259  	103.416116 
2986.112075  	103.391639 
2987.542890  	103.339817 
2988.973706  	103.266270 
2990.404522  	103.192957 
2991.835337  	103.076362 
2993.266153  	102.910489 
2994.696968  	102.753647 
2996.127784  	102.593880 
2997.558599  	102.428778 
2998.989415  	102.281257 
3000.420231  	102.161569 
3001.851046  	102.102345 
3003.281862  	102.074660 
3004.712677  	102.066307 
3006.143493  	102.109526 
3007.574308  	102.146291 
3009.005124  	102.152077 
3010.435939  	102.134425 
3011.866755  	102.062849 
3013.297571  	101.984489 
3014.728386  	101.905666 
3016.159202  	101.785491 
3017.590017  	101.665867 
3019.020833  	101.537512 
3020.451648  	101.394805 
3021.882464  	101.295758 
3023.313279  	101.218360 
3024.744095  	101.144304 
3026.174911  	101.106325 
3027.605726  	101.112487 
3029.036542  	101.138724 
3030.467357  	101.145020 
3031.898173  	101.164583 
3033.328988  	101.212197 
3034.759804  	101.210628 
3036.190620  	101.178188 
3037.621435  	101.150703 
3039.052251  	101.095835 
3040.483066  	101.042626 
3041.913882  	100.986810 
3043.344697  	100.902070 
3044.775513  	100.823496 
3046.206328  	100.735658 
3047.637144  	100.648307 
3049.067960  	100.611747 
3050.498775  	100.614707 
3051.929591  	100.655262 
3053.360406  	100.697833 
3054.791222  	100.693872 
3056.222037  	100.674173 
3057.652853  	100.633793 
3059.083669  	100.558364 
3060.514484  	100.466323 
3061.945300  	100.332189 
3063.376115  	100.158727 
3064.806931  	99.957036 
3066.237746  	99.726797 
3067.668562  	99.513244 
3069.099377  	99.315617 
3070.530193  	99.152755 
3071.961009  	99.098854 
3073.391824  	99.174815 
3074.822640  	99.419256 
3076.253455  	99.823169 
3077.684271  	100.289958 
3079.115086  	100.782628 
3080.545902  	101.260881 
3081.976717  	101.675270 
3083.407533  	102.041721 
3084.838349  	102.342346 
3086.269164  	102.571829 
3087.699980  	102.786449 
3089.130795  	102.988866 
3090.561611  	103.169618 
3091.992426  	103.335692 
3093.423242  	103.451190 
3094.854058  	103.501654 
3096.284873  	103.514485 
3097.715689  	103.487631 
3099.146504  	103.378407 
3100.577320  	103.184755 
3102.008135  	102.993156 
3103.438951  	102.870797 
3104.869766  	102.839574 
3106.300582  	102.933521 
3107.731398  	103.149589 
3109.162213  	103.456181 
3110.593029  	103.820431 
3112.023844  	104.195402 
3113.454660  	104.545868 
3114.885475  	104.842653 
3116.316291  	105.077001 
3117.747106  	105.281209 
3119.177922  	105.459456 
3120.608738  	105.586694 
3122.039553  	105.670692 
3123.470369  	105.747233 
3124.901184  	105.837479 
3126.332000  	105.919142 
3127.762815  	106.004152 
3129.193631  	106.132697 
3130.624447  	106.248157 
3132.055262  	106.320729 
3133.486078  	106.425734 
3134.916893  	106.568144 
3136.347709  	106.709774 
3137.778524  	106.845494 
3139.209340  	106.954508 
3140.640155  	107.042293 
3142.070971  	107.125010 
3143.501787  	107.200830 
3144.932602  	107.282768 
3146.363418  	107.357498 
3147.794233  	107.421757 
3149.225049  	107.497271 
3150.655864  	107.561334 
3152.086680  	107.610476 
3153.517496  	107.661480 
3154.948311  	107.700512 
3156.379127  	107.740736 
3157.809942  	107.793165 
3159.240758  	107.851233 
3160.671573  	107.924718 
3162.102389  	108.001051 
3163.533204  	108.075771 
3164.964020  	108.161975 
3166.394836  	108.247991 
3167.825651  	108.333031 
3169.256467  	108.423732 
3170.687282  	108.517716 
3172.118098  	108.615921 
3173.548913  	108.719323 
3174.979729  	108.832271 
3176.410544  	108.923546 
3177.841360  	108.984220 
3179.272176  	109.090452 
3180.702991  	109.242931 
3182.133807  	109.373600 
3183.564622  	109.486436 
3184.995438  	109.601077 
3186.426253  	109.739151 
3187.857069  	109.903905 
3189.287885  	110.050107 
3190.718700  	110.194839 
3192.149516  	110.362852 
3193.580331  	110.530369 
3195.011147  	110.696466 
3196.441962  	110.831157 
3197.872778  	110.952282 
3199.303593  	111.131308 
3200.734409  	111.314793 
3202.165225  	111.475322 
3203.596040  	111.663682 
3205.026856  	111.865467 
3206.457671  	112.090926 
3207.888487  	112.317202 
3209.319302  	112.511089 
3210.750118  	112.766872 
3212.180933  	113.039496 
3213.611749  	113.226699 
3215.042565  	113.446205 
3216.473380  	113.711975 
3217.904196  	113.912248 
3219.335011  	114.085090 
3220.765827  	114.282505 
3222.196642  	114.507455 
3223.627458  	114.735966 
3225.058274  	114.920577 
3226.489089  	115.086179 
3227.919905  	115.252759 
3229.350720  	115.421433 
3230.781536  	115.597377 
3232.212351  	115.732410 
3233.643167  	115.844204 
3235.073982  	115.946542 
3236.504798  	115.995341 
3237.935614  	116.034866 
3239.366429  	116.040433 
3240.797245  	115.987169 
3242.228060  	115.937507 
3243.658876  	115.770935 
3245.089691  	115.511518 
3246.520507  	115.410220 
3247.951323  	115.432548 
3249.382138  	115.561430 
3250.812954  	115.869897 
3252.243769  	116.190231 
3253.674585  	116.471875 
3255.105400  	116.779885 
3256.536216  	117.093976 
3257.967031  	117.419880 
3259.397847  	117.707964 
3260.828663  	117.968057 
3262.259478  	118.222250 
3263.690294  	118.392055 
3265.121109  	118.571906 
3266.551925  	118.825245 
3267.982740  	119.090152 
3269.413556  	119.433413 
3270.844371  	119.819068 
3272.275187  	120.200708 
3273.706003  	120.637299 
3275.136818  	121.081000 
3276.567634  	121.588762 
3277.998449  	122.170425 
3279.429265  	122.701943 
3280.860080  	123.228646 
3282.290896  	123.710973 
3283.721712  	124.154325 
3285.152527  	124.696739 
3286.583343  	125.189998 
3288.014158  	125.615345 
3289.444974  	126.080191 
3290.875789  	126.420837 
3292.306605  	126.704612 
3293.737420  	127.066687 
3295.168236  	127.374333 
3296.599052  	127.609874 
3298.029867  	127.813035 
3299.460683  	128.046763 
3300.891498  	128.334215 
3302.322314  	128.533653 
3303.753129  	128.713540 
3305.183945  	128.939993 
3306.614760  	129.042774 
3308.045576  	129.052213 
3309.476392  	129.114051 
3310.907207  	129.252318 
3312.338023  	129.388304 
3313.768838  	129.477209 
3315.199654  	129.626814 
3316.630469  	129.773321 
3318.061285  	129.846027 
3319.492101  	130.001500 
3320.922916  	130.167651 
3322.353732  	130.279028 
3323.784547  	130.418875 
3325.215363  	130.489316 
3326.646178  	130.565309 
3328.076994  	130.738599 
3329.507809  	130.909252 
3330.938625  	131.146084 
3332.369441  	131.405007 
3333.800256  	131.597416 
3335.231072  	131.792043 
3336.661887  	131.958577 
3338.092703  	132.241539 
3339.523518  	132.650644 
3340.954334  	132.933111 
3342.385150  	133.252409 
3343.815965  	133.665895 
3345.246781  	134.033015 
3346.677596  	134.515800 
3348.108412  	135.016620 
3349.539227  	135.458020 
3350.970043  	135.992267 
3352.400858  	136.505924 
3353.831674  	137.042246 
3355.262490  	137.620590 
3356.693305  	138.207586 
3358.124121  	139.010153 
3359.554936  	139.739732 
3360.985752  	140.341138 
3362.416567  	141.238132 
3363.847383  	142.112897 
3365.278198  	142.874524 
3366.709014  	143.767243 
3368.139830  	144.581094 
3369.570645  	145.494071 
3371.001461  	146.467041 
3372.432276  	147.311534 
3373.863092  	148.365076 
3375.293907  	149.379456 
3376.724723  	150.302487 
3378.155539  	151.412129 
3379.586354  	152.387374 
3381.017170  	153.477373 
3382.447985  	154.573996 
3383.878801  	155.261570 
3385.309616  	156.268673 
3386.740432  	157.486263 
3388.171247  	158.737650 
3389.602063  	160.322683 
3391.032879  	161.076833 
3392.463694  	161.324499 
3393.894510  	162.380394 
3395.325325  	163.364003 
3396.756141  	164.051377 
3398.186956  	164.997545 
3399.617772  	165.981348 
3401.048587  	166.683554 
3402.479403  	166.702397 
3403.910219  	166.878659 
3405.341034  	167.597806 
3406.771850  	167.935135 
3408.202665  	168.394896 
3409.633481  	168.860304 
3411.064296  	168.867602 
3412.495112  	169.124506 
3413.925928  	168.898490 
3415.356743  	168.653999 
3416.787559  	169.369286 
3418.218374  	169.251947 
3419.649190  	168.095438 
3421.080005  	167.073591 
3422.510821  	166.700762 
3423.941636  	167.384767 
3425.372452  	167.715050 
3426.803268  	167.541921 
3428.234083  	167.827117 
3429.664899  	167.361404 
3431.095714  	166.793418 
3432.526530  	166.923086 
3433.957345  	166.885474 
3435.388161  	167.016979 
3436.818977  	166.466143 
3438.249792  	165.721375 
3439.680608  	166.029928 
3441.111423  	165.206484 
3442.542239  	164.728437 
3443.973054  	166.343117 
3445.403870  	165.514831 
3446.834685  	162.740046 
3448.265501  	162.773146 
3449.696317  	164.484352 
3451.127132  	165.433528 
3452.557948  	165.558773 
3453.988763  	165.695381 
3455.419579  	166.090122 
3456.850394  	166.372742 
3458.281210  	167.231444 
3459.712025  	167.732361 
3461.142841  	166.833385 
3462.573657  	166.798645 
3464.004472  	167.974042 
3465.435288  	168.753711 
3466.866103  	169.093208 
3468.296919  	169.006215 
3469.727734  	168.865413 
3471.158550  	168.773785 
3472.589366  	168.466395 
3474.020181  	168.290800 
3475.450997  	168.305673 
3476.881812  	169.380511 
3478.312628  	170.946085 
3479.743443  	170.038924 
3481.174259  	167.609606 
3482.605074  	166.862281 
3484.035890  	168.093142 
3485.466706  	169.160767 
3486.897521  	168.016499 
3488.328337  	166.743394 
3489.759152  	167.297438 
3491.189968  	167.834038 
3492.620783  	168.281631 
3494.051599  	168.347200 
3495.482414  	166.972979 
3496.913230  	166.655225 
3498.344046  	167.913110 
3499.774861  	168.660324 
3501.205677  	167.489223 
3502.636492  	163.744403 
3504.067308  	161.866341 
3505.498123  	164.284782 
3506.928939  	165.682550 
3508.359755  	163.574231 
3509.790570  	161.620611 
3511.221386  	162.114726 
3512.652201  	163.266385 
3514.083017  	163.340237 
3515.513832  	163.295473 
3516.944648  	163.144493 
3518.375463  	162.769442 
3519.806279  	163.871401 
3521.237095  	164.031444 
3522.667910  	161.501597 
3524.098726  	160.491177 
3525.529541  	160.640983 
3526.960357  	159.051129 
3528.391172  	157.765901 
3529.821988  	157.712589 
3531.252804  	158.209749 
3532.683619  	159.348779 
3534.114435  	159.224455 
3535.545250  	157.271955 
3536.976066  	156.082041 
3538.406881  	156.436701 
3539.837697  	157.009116 
3541.268512  	157.249231 
3542.699328  	156.708675 
3544.130144  	154.406609 
3545.560959  	150.973943 
3546.991775  	149.346622 
3548.422590  	150.555639 
3549.853406  	151.411121 
3551.284221  	149.438300 
3552.715037  	147.107641 
3554.145852  	146.933849 
3555.576668  	147.218170 
3557.007484  	146.814928 
3558.438299  	146.011321 
3559.869115  	144.818480 
3561.299930  	144.161164 
3562.730746  	144.609898 
3564.161561  	144.258484 
3565.592377  	140.601781 
3567.023193  	135.469670 
3568.454008  	134.630369 
3569.884824  	136.699368 
3571.315639  	137.533079 
3572.746455  	137.002987 
3574.177270  	136.222812 
3575.608086  	135.359469 
3577.038901  	134.691273 
3578.469717  	134.033929 
3579.900533  	133.276639 
3581.331348  	132.958660 
3582.762164  	133.146234 
3584.192979  	133.284576 
3585.623795  	131.625552 
3587.054610  	127.656687 
3588.485426  	126.049007 
3589.916241  	127.744454 
3591.347057  	128.789064 
3592.777873  	127.988673 
3594.208688  	126.483567 
3595.639504  	125.647817 
3597.070319  	125.737719 
3598.501135  	125.563664 
3599.931950  	124.587166 
3601.362766  	123.885482 
3602.793582  	124.037468 
3604.224397  	124.476184 
3605.655213  	124.197099 
3607.086028  	122.495224 
3608.516844  	120.961675 
3609.947659  	121.198123 
3611.378475  	121.157961 
3612.809290  	119.833886 
3614.240106  	119.526611 
3615.670922  	120.363896 
3617.101737  	119.895794 
3618.532553  	117.883027 
3619.963368  	116.925886 
3621.394184  	117.594235 
3622.824999  	118.214747 
3624.255815  	118.570717 
3625.686631  	119.054571 
3627.117446  	117.916151 
3628.548262  	114.122717 
3629.979077  	113.550033 
3631.409893  	115.353201 
3632.840708  	115.386098 
3634.271524  	114.817486 
3635.702339  	115.028693 
3637.133155  	114.838983 
3638.563971  	114.489179 
3639.994786  	114.431615 
3641.425602  	114.075213 
3642.856417  	114.036247 
3644.287233  	114.417595 
3645.718048  	114.053517 
3647.148864  	112.898755 
3648.579679  	111.555288 
3650.010495  	110.224249 
3651.441311  	110.582420 
3652.872126  	112.020355 
3654.302942  	112.246498 
3655.733757  	111.063312 
3657.164573  	110.658990 
3658.595388  	111.102937 
3660.026204  	111.157572 
3661.457020  	111.023697 
3662.887835  	110.959463 
3664.318651  	110.925647 
3665.749466  	111.159293 
3667.180282  	111.279386 
3668.611097  	110.228965 
3670.041913  	108.855720 
3671.472728  	109.632563 
3672.903544  	110.577306 
3674.334360  	109.269344 
3675.765175  	107.571842 
3677.195991  	108.384591 
3678.626806  	108.775037 
3680.057622  	108.691100 
3681.488437  	108.956042 
3682.919253  	109.045664 
3684.350068  	109.218661 
3685.780884  	109.536509 
3687.211700  	109.051268 
3688.642515  	108.063501 
3690.073331  	107.693132 
3691.504146  	107.716937 
3692.934962  	108.100430 
3694.365777  	108.357037 
3695.796593  	108.270279 
3697.227409  	108.449131 
3698.658224  	108.712656 
3700.089040  	108.418373 
3701.519855  	107.918627 
3702.950671  	107.995545 
3704.381486  	108.390482 
3705.812302  	108.616022 
3707.243117  	108.699294 
3708.673933  	108.617195 
3710.104749  	108.001939 
3711.535564  	107.193380 
3712.966380  	107.154490 
3714.397195  	107.727103 
3715.828011  	108.178414 
3717.258826  	108.238069 
3718.689642  	108.228002 
3720.120458  	108.241076 
3721.551273  	108.042625 
3722.982089  	108.023751 
3724.412904  	108.063238 
3725.843720  	107.735076 
3727.274535  	107.966011 
3728.705351  	108.755141 
3730.136166  	108.914505 
3731.566982  	108.531691 
3732.997798  	108.181622 
3734.428613  	107.407986 
3735.859429  	106.879637 
3737.290244  	107.476062 
3738.721060  	107.980559 
3740.151875  	108.436065 
3741.582691  	108.965780 
3743.013506  	108.289861 
3744.444322  	106.837634 
3745.875138  	107.661451 
3747.305953  	108.592874 
3748.736769  	108.315459 
3750.167584  	107.477737 
3751.598400  	106.942701 
3753.029215  	107.177876 
3754.460031  	107.903713 
3755.890847  	108.199114 
3757.321662  	108.051966 
3758.752478  	107.741704 
3760.183293  	107.608513 
3761.614109  	108.138435 
3763.044924  	108.441019 
3764.475740  	107.989326 
3765.906555  	107.955999 
3767.337371  	108.303163 
3768.768187  	107.922787 
3770.199002  	107.537582 
3771.629818  	107.850358 
3773.060633  	108.096116 
3774.491449  	108.165641 
3775.922264  	108.339982 
3777.353080  	108.286580 
3778.783895  	107.780783 
3780.214711  	107.699714 
3781.645527  	108.129686 
3783.076342  	108.105763 
3784.507158  	107.826552 
3785.937973  	107.931893 
3787.368789  	108.100851 
3788.799604  	108.153169 
3790.230420  	108.192190 
3791.661236  	108.358145 
3793.092051  	108.683962 
3794.522867  	108.552005 
3795.953682  	108.018881 
3797.384498  	108.327018 
3798.815313  	108.891616 
3800.246129  	108.210839 
3801.676944  	107.236708 
3803.107760  	108.024520 
3804.538576  	108.725637 
3805.969391  	108.159237 
3807.400207  	107.706043 
3808.831022  	108.199250 
3810.261838  	108.465541 
3811.692653  	108.795763 
3813.123469  	109.233864 
3814.554284  	108.718589 
3815.985100  	108.009237 
3817.415916  	108.721593 
3818.846731  	109.055486 
3820.277547  	107.941812 
3821.708362  	107.360645 
3823.139178  	108.230985 
3824.569993  	108.562144 
3826.000809  	108.234512 
3827.431625  	108.414324 
3828.862440  	108.845693 
3830.293256  	108.732458 
3831.724071  	108.550049 
3833.154887  	108.711541 
3834.585702  	108.808943 
3836.016518  	108.621618 
3837.447333  	108.099193 
3838.878149  	107.691163 
3840.308965  	107.832924 
3841.739780  	108.035388 
3843.170596  	107.998531 
3844.601411  	108.102064 
3846.032227  	108.459040 
3847.463042  	108.728428 
3848.893858  	109.011746 
3850.324674  	109.319392 
3851.755489  	108.569385 
3853.186305  	106.733486 
3854.617120  	106.789242 
3856.047936  	107.553137 
3857.478751  	108.016830 
3858.909567  	108.402592 
3860.340382  	108.473888 
3861.771198  	108.344395 
3863.202014  	108.004603 
3864.632829  	107.672631 
3866.063645  	108.378271 
3867.494460  	108.809695 
3868.925276  	107.739200 
3870.356091  	107.326229 
3871.786907  	108.068266 
3873.217722  	107.863956 
3874.648538  	107.690932 
3876.079354  	108.512683 
3877.510169  	108.970724 
3878.940985  	108.324623 
3880.371800  	107.608710 
3881.802616  	108.216961 
3883.233431  	108.722306 
3884.664247  	107.975405 
3886.095063  	107.703064 
3887.525878  	108.677704 
3888.956694  	109.027572 
3890.387509  	108.451333 
3891.818325  	108.067546 
3893.249140  	108.380397 
3894.679956  	108.873970 
3896.110771  	109.160526 
3897.541587  	108.983490 
3898.972403  	108.489859 
3900.403218  	108.301815 
3901.834034  	108.278301 
3903.264849  	107.938862 
3904.695665  	107.891038 
3906.126480  	108.385210 
3907.557296  	108.837056 
3908.988111  	109.059202 
3910.418927  	109.067929 
3911.849743  	109.106926 
3913.280558  	109.292756 
3914.711374  	109.171177 
3916.142189  	108.787014 
3917.573005  	108.657473 
3919.003820  	108.682268 
3920.434636  	108.856477 
3921.865452  	109.052117 
3923.296267  	108.807265 
3924.727083  	108.558472 
3926.157898  	108.829183 
3927.588714  	109.090573 
3929.019529  	109.014021 
3930.450345  	108.704880 
3931.881160  	108.413860 
3933.311976  	108.520505 
3934.742792  	108.880424 
3936.173607  	109.010660 
3937.604423  	108.985620 
3939.035238  	109.089258 
3940.466054  	109.011180 
3941.896869  	108.579227 
3943.327685  	108.483383 
3944.758501  	108.821524 
3946.189316  	108.866146 
3947.620132  	108.604450 
3949.050947  	108.528267 
3950.481763  	108.691866 
3951.912578  	108.886411 
3953.343394  	108.985294 
3954.774209  	108.981303 
3956.205025  	108.941946 
3957.635841  	108.940170 
3959.066656  	108.977175 
3960.497472  	108.926621 
3961.928287  	108.863448 
3963.359103  	108.985219 
3964.789918  	109.137811 
3966.220734  	109.174471 
3967.651549  	109.171216 
3969.082365  	109.162012 
3970.513181  	109.190882 
3971.943996  	109.227844 
3973.374812  	109.196831 
3974.805627  	109.183366 
3976.236443  	109.243264 
3977.667258  	109.347988 
3979.098074  	109.427900 
3980.528890  	109.424823 
3981.959705  	109.452001 
3983.390521  	109.520983 
3984.821336  	109.540250 
3986.252152  	109.581043 
3987.682967  	109.597141 
3989.113783  	109.529907 
3990.544598  	109.528936 
3991.975414  	109.597033 
3993.406230  	109.632212 
3994.837045  	109.640846 
3996.267861  	109.661293 
3997.698676  	109.713795 
3999.129492  	109.735264 
4000.560307  	109.718074 